<Bundle xmlns="http://hl7.org/fhir">
    <type value="transaction"></type>
    <entry>
        <fullUrl value="urn:uuid:aa470238-47ec-4503-9e14-738cdc2d7192"></fullUrl>
        <resource>
            <Patient xmlns="http://hl7.org/fhir">
                <identifier>
                    <system value="urn:system"></system>
                    <value value="JoelAlexPatient"></value>
                </identifier>
                <name>
                    <family value="Rodriguez"></family>
                    <given value="Jose"></given>
                </name>
                <gender value="male"></gender>
            </Patient>
        </resource>
        <request>
            <method value="PUT"></method>
            <url value="Patient?identifier=urn:system|JoelAlexPatient"></url>
        </request>
    </entry>
    <entry>
        <fullUrl value="urn:uuid:eabc95b0-480b-4fbd-94af-a3656f153084"></fullUrl>
        <resource>
            <DocumentReference xmlns="http://hl7.org/fhir">
                <text>
                    <div xmlns="http://www.w3.org/1999/xhtml">This DocumentReference was created by the Infoway Parser for form Breast.Bmk.169_1.003.001.CTP3_sdcFDFbc3d9cf6-72eb-47ab-86b5-ccfc5f37ef8c/ver1</div>
                </text>
                <masterIdentifier>
                    <system value="https://cap.org"></system>
                    <value value="Breast.Bmk.169_1.003.001.CTP3_sdcFDFbc3d9cf6-72eb-47ab-86b5-ccfc5f37ef8c/ver1"></value>
                </masterIdentifier>
                <status value="current"></status>
                <subject>
                    <reference value="urn:uuid:aa470238-47ec-4503-9e14-738cdc2d7192"></reference>
                </subject>
                <date value="2020-09-10T19:56:44.470+00:00"></date>
                <content>
                    <attachment>
                        <contentType value="text/plain"></contentType>
                        <data value=""></data>
                    </attachment>
                </content>
            </DocumentReference>
        </resource>
        <request>
            <method value="POST"></method>
            <url value="DocumentReference"></url>
        </request>
    </entry>
    <entry>
        <fullUrl value="urn:uuid:68a473d9-de42-43df-ac53-522476f7916f"></fullUrl>
        <resource>
            <Observation xmlns="http://hl7.org/fhir">
                <identifier>
                    <system value="https://CAP.org"></system>
                    <value value="Breast.Bmk.169_1.003.001.CTP3_sdcFDFbc3d9cf6-72eb-47ab-86b5-ccfc5f37ef8c/ver1.31159.100004300"></value>
                </identifier>
                <status value="final"></status>
                <code>
                    <coding>
                        <system value="https://CAP.org"></system>
                        <code value="31159.100004300"></code>
                        <display value="Test(s) Performed"></display>
                    </coding>
                </code>
                <subject>
                    <reference value="urn:uuid:aa470238-47ec-4503-9e14-738cdc2d7192"></reference>
                </subject>
                <derivedFrom>
                    <reference value="urn:uuid:eabc95b0-480b-4fbd-94af-a3656f153084"></reference>
                </derivedFrom>
                <component>
                    <code>
                        <coding>
                            <system value="https://CAP.org"></system>
                            <code value="31160.100004300"></code>
                            <display value="Estrogen Receptor (ER) Status (Note A)"></display>
                        </coding>
                    </code>
                </component>
                <component>
                    <code>
                        <coding>
                            <system value="https://CAP.org"></system>
                            <code value="31161.100004300"></code>
                            <display value="Progesterone Receptor (PgR) Status (Note A)"></display>
                        </coding>
                    </code>
                </component>
                <component>
                    <code>
                        <coding>
                            <system value="https://CAP.org"></system>
                            <code value="31163.100004300"></code>
                            <display value="HER2 by Immunohistochemistry (Note B)"></display>
                        </coding>
                    </code>
                </component>
                <component>
                    <code>
                        <coding>
                            <system value="https://CAP.org"></system>
                            <code value="31166.100004300"></code>
                            <display value="HER2 by in situ Hybridization"></display>
                        </coding>
                    </code>
                </component>
            </Observation>
        </resource>
        <request>
            <method value="POST"></method>
            <url value="Observation"></url>
        </request>
    </entry>
    <entry>
        <fullUrl value="urn:uuid:16be5291-9f8a-4ebe-9572-ff6deb5b4100"></fullUrl>
        <resource>
            <Observation xmlns="http://hl7.org/fhir">
                <identifier>
                    <system value="https://CAP.org"></system>
                    <value value="Breast.Bmk.169_1.003.001.CTP3_sdcFDFbc3d9cf6-72eb-47ab-86b5-ccfc5f37ef8c/ver1#26435.100004300"></value>
                </identifier>
                <status value="final"></status>
                <code>
                    <coding>
                        <system value="https://CAP.org"></system>
                        <code value="26435.100004300"></code>
                    </coding>
                </code>
                <subject>
                    <reference value="urn:uuid:aa470238-47ec-4503-9e14-738cdc2d7192"></reference>
                </subject>
                <valueCodeableConcept>
                    <coding>
                        <system value="https://CAP.org"></system>
                        <code value="29604.100004300"></code>
                        <display value="Positive"></display>
                    </coding>
                </valueCodeableConcept>
                <derivedFrom>
                    <reference value="urn:uuid:eabc95b0-480b-4fbd-94af-a3656f153084"></reference>
                </derivedFrom>
            </Observation>
        </resource>
        <request>
            <method value="POST"></method>
            <url value="Observation"></url>
        </request>
    </entry>
    <entry>
        <fullUrl value="urn:uuid:276674d8-4e5c-4478-a307-10804221e057"></fullUrl>
        <resource>
            <Observation xmlns="http://hl7.org/fhir">
                <identifier>
                    <system value="https://CAP.org"></system>
                    <value value="Breast.Bmk.169_1.003.001.CTP3_sdcFDFbc3d9cf6-72eb-47ab-86b5-ccfc5f37ef8c/ver1#31766.100004300"></value>
                </identifier>
                <status value="final"></status>
                <code>
                    <coding>
                        <system value="https://CAP.org"></system>
                        <code value="31766.100004300"></code>
                        <display value="Percentage of Cells with Nuclear Positivity#"></display>
                    </coding>
                </code>
                <subject>
                    <reference value="urn:uuid:aa470238-47ec-4503-9e14-738cdc2d7192"></reference>
                </subject>
                <valueCodeableConcept>
                    <coding>
                        <system value="https://CAP.org"></system>
                        <code value="32076.100004300"></code>
                        <display value="21-30%"></display>
                    </coding>
                </valueCodeableConcept>
                <derivedFrom>
                    <reference value="urn:uuid:eabc95b0-480b-4fbd-94af-a3656f153084"></reference>
                </derivedFrom>
            </Observation>
        </resource>
        <request>
            <method value="POST"></method>
            <url value="Observation"></url>
        </request>
    </entry>
    <entry>
        <fullUrl value="urn:uuid:262fc1a1-6ace-4117-a9e6-6c8195ebe07d"></fullUrl>
        <resource>
            <Observation xmlns="http://hl7.org/fhir">
                <identifier>
                    <system value="https://CAP.org"></system>
                    <value value="Breast.Bmk.169_1.003.001.CTP3_sdcFDFbc3d9cf6-72eb-47ab-86b5-ccfc5f37ef8c/ver1#30524.100004300"></value>
                </identifier>
                <status value="final"></status>
                <code>
                    <coding>
                        <system value="https://CAP.org"></system>
                        <code value="30524.100004300"></code>
                    </coding>
                </code>
                <subject>
                    <reference value="urn:uuid:aa470238-47ec-4503-9e14-738cdc2d7192"></reference>
                </subject>
                <valueCodeableConcept>
                    <coding>
                        <system value="https://CAP.org"></system>
                        <code value="25882.100004300"></code>
                        <display value="Cannot be determined (indeterminate)###"></display>
                    </coding>
                </valueCodeableConcept>
                <derivedFrom>
                    <reference value="urn:uuid:eabc95b0-480b-4fbd-94af-a3656f153084"></reference>
                </derivedFrom>
            </Observation>
        </resource>
        <request>
            <method value="POST"></method>
            <url value="Observation"></url>
        </request>
    </entry>
    <entry>
        <fullUrl value="urn:uuid:37561426-146e-49a5-8c41-bdd043e058f7"></fullUrl>
        <resource>
            <Observation xmlns="http://hl7.org/fhir">
                <identifier>
                    <system value="https://CAP.org"></system>
                    <value value="Breast.Bmk.169_1.003.001.CTP3_sdcFDFbc3d9cf6-72eb-47ab-86b5-ccfc5f37ef8c/ver1.32108.100004300"></value>
                </identifier>
                <status value="final"></status>
                <code>
                    <coding>
                        <system value="https://CAP.org"></system>
                        <code value="32108.100004300"></code>
                    </coding>
                </code>
                <subject>
                    <reference value="urn:uuid:aa470238-47ec-4503-9e14-738cdc2d7192"></reference>
                </subject>
                <derivedFrom>
                    <reference value="urn:uuid:eabc95b0-480b-4fbd-94af-a3656f153084"></reference>
                </derivedFrom>
                <component>
                    <code>
                        <coding>
                            <system value="https://CAP.org"></system>
                            <code value="32110.100004300"></code>
                            <display value="Other (specify)"></display>
                        </coding>
                    </code>
                </component>
            </Observation>
        </resource>
        <request>
            <method value="POST"></method>
            <url value="Observation"></url>
        </request>
    </entry>
    <entry>
        <fullUrl value="urn:uuid:aa595442-6353-4d75-ab48-c428b4047619"></fullUrl>
        <resource>
            <Observation xmlns="http://hl7.org/fhir">
                <identifier>
                    <system value="https://CAP.org"></system>
                    <value value="Breast.Bmk.169_1.003.001.CTP3_sdcFDFbc3d9cf6-72eb-47ab-86b5-ccfc5f37ef8c/ver1#31102.100004300"></value>
                </identifier>
                <status value="final"></status>
                <code>
                    <coding>
                        <system value="https://CAP.org"></system>
                        <code value="31102.100004300"></code>
                        <display value="Primary Antibody"></display>
                    </coding>
                </code>
                <subject>
                    <reference value="urn:uuid:aa470238-47ec-4503-9e14-738cdc2d7192"></reference>
                </subject>
                <valueCodeableConcept>
                    <coding>
                        <system value="https://CAP.org"></system>
                        <code value="32115.100004300"></code>
                        <display value="1294"></display>
                    </coding>
                </valueCodeableConcept>
                <derivedFrom>
                    <reference value="urn:uuid:eabc95b0-480b-4fbd-94af-a3656f153084"></reference>
                </derivedFrom>
            </Observation>
        </resource>
        <request>
            <method value="POST"></method>
            <url value="Observation"></url>
        </request>
    </entry>
    <entry>
        <fullUrl value="urn:uuid:6e27cccd-ce06-4d0c-bce1-a3fe58791d0f"></fullUrl>
        <resource>
            <Observation xmlns="http://hl7.org/fhir">
                <identifier>
                    <system value="https://CAP.org"></system>
                    <value value="Breast.Bmk.169_1.003.001.CTP3_sdcFDFbc3d9cf6-72eb-47ab-86b5-ccfc5f37ef8c/ver1#31012.100004300"></value>
                </identifier>
                <status value="final"></status>
                <code>
                    <coding>
                        <system value="https://CAP.org"></system>
                        <code value="31012.100004300"></code>
                    </coding>
                </code>
                <subject>
                    <reference value="urn:uuid:aa470238-47ec-4503-9e14-738cdc2d7192"></reference>
                </subject>
                <valueCodeableConcept>
                    <coding>
                        <system value="https://CAP.org"></system>
                        <code value="31017.100004300"></code>
                        <display value="Equivocal (Score 2+)"></display>
                    </coding>
                </valueCodeableConcept>
                <derivedFrom>
                    <reference value="urn:uuid:eabc95b0-480b-4fbd-94af-a3656f153084"></reference>
                </derivedFrom>
            </Observation>
        </resource>
        <request>
            <method value="POST"></method>
            <url value="Observation"></url>
        </request>
    </entry>
    <entry>
        <fullUrl value="urn:uuid:1ec6c099-d95c-44b9-acc6-bc1444428acc"></fullUrl>
        <resource>
            <Observation xmlns="http://hl7.org/fhir">
                <identifier>
                    <system value="https://CAP.org"></system>
                    <value value="Breast.Bmk.169_1.003.001.CTP3_sdcFDFbc3d9cf6-72eb-47ab-86b5-ccfc5f37ef8c/ver1#31116.100004300"></value>
                </identifier>
                <status value="final"></status>
                <code>
                    <coding>
                        <system value="https://CAP.org"></system>
                        <code value="31116.100004300"></code>
                        <display value="Primary Antibody"></display>
                    </coding>
                </code>
                <subject>
                    <reference value="urn:uuid:aa470238-47ec-4503-9e14-738cdc2d7192"></reference>
                </subject>
                <valueCodeableConcept>
                    <coding>
                        <system value="https://CAP.org"></system>
                        <code value="31120.100004300"></code>
                        <display value="SP3"></display>
                    </coding>
                </valueCodeableConcept>
                <derivedFrom>
                    <reference value="urn:uuid:eabc95b0-480b-4fbd-94af-a3656f153084"></reference>
                </derivedFrom>
            </Observation>
        </resource>
        <request>
            <method value="POST"></method>
            <url value="Observation"></url>
        </request>
    </entry>
    <entry>
        <fullUrl value="urn:uuid:495f1228-a121-4486-9a87-5f5e393ed944"></fullUrl>
        <resource>
            <Observation xmlns="http://hl7.org/fhir">
                <identifier>
                    <system value="https://CAP.org"></system>
                    <value value="Breast.Bmk.169_1.003.001.CTP3_sdcFDFbc3d9cf6-72eb-47ab-86b5-ccfc5f37ef8c/ver1#49055.100004300"></value>
                </identifier>
                <status value="final"></status>
                <code>
                    <coding>
                        <system value="https://CAP.org"></system>
                        <code value="49055.100004300"></code>
                    </coding>
                </code>
                <subject>
                    <reference value="urn:uuid:aa470238-47ec-4503-9e14-738cdc2d7192"></reference>
                </subject>
                <valueCodeableConcept>
                    <coding>
                        <system value="https://CAP.org"></system>
                        <code value="51471.100004300"></code>
                        <display value="Not performed"></display>
                    </coding>
                </valueCodeableConcept>
                <derivedFrom>
                    <reference value="urn:uuid:eabc95b0-480b-4fbd-94af-a3656f153084"></reference>
                </derivedFrom>
            </Observation>
        </resource>
        <request>
            <method value="POST"></method>
            <url value="Observation"></url>
        </request>
    </entry>
    <entry>
        <fullUrl value="urn:uuid:88d1e52d-f54c-4b5c-9173-48f92754fdcf"></fullUrl>
        <resource>
            <Observation xmlns="http://hl7.org/fhir">
                <identifier>
                    <system value="https://CAP.org"></system>
                    <value value="Breast.Bmk.169_1.003.001.CTP3_sdcFDFbc3d9cf6-72eb-47ab-86b5-ccfc5f37ef8c/ver1#31113.100004300"></value>
                </identifier>
                <status value="final"></status>
                <code>
                    <coding>
                        <system value="https://CAP.org"></system>
                        <code value="31113.100004300"></code>
                        <display value="Test Type"></display>
                    </coding>
                </code>
                <subject>
                    <reference value="urn:uuid:aa470238-47ec-4503-9e14-738cdc2d7192"></reference>
                </subject>
                <valueCodeableConcept>
                    <coding>
                        <system value="https://CAP.org"></system>
                        <code value="31114.100004300"></code>
                        <display value="Food and Drug Administration (FDA) cleared (specify test / vendor)"></display>
                    </coding>
                </valueCodeableConcept>
                <derivedFrom>
                    <reference value="urn:uuid:eabc95b0-480b-4fbd-94af-a3656f153084"></reference>
                </derivedFrom>
            </Observation>
        </resource>
        <request>
            <method value="POST"></method>
            <url value="Observation"></url>
        </request>
    </entry>
    <entry>
        <fullUrl value="urn:uuid:9e6bf1c9-ac38-43c5-a8a7-8ea03f393776"></fullUrl>
        <resource>
            <Observation xmlns="http://hl7.org/fhir">
                <identifier>
                    <system value="https://CAP.org"></system>
                    <value value="Breast.Bmk.169_1.003.001.CTP3_sdcFDFbc3d9cf6-72eb-47ab-86b5-ccfc5f37ef8c/ver1#52536.100004300"></value>
                </identifier>
                <status value="final"></status>
                <code>
                    <coding>
                        <system value="https://CAP.org"></system>
                        <code value="52536.100004300"></code>
                        <display value="Cold Ischemia and Fixation Times"></display>
                    </coding>
                </code>
                <subject>
                    <reference value="urn:uuid:aa470238-47ec-4503-9e14-738cdc2d7192"></reference>
                </subject>
                <valueCodeableConcept>
                    <coding>
                        <system value="https://CAP.org"></system>
                        <code value="58421.100004300"></code>
                        <display value="Do not meet requirements specified in latest version of the ASCO / CAP Guidelines"></display>
                    </coding>
                </valueCodeableConcept>
                <derivedFrom>
                    <reference value="urn:uuid:eabc95b0-480b-4fbd-94af-a3656f153084"></reference>
                </derivedFrom>
            </Observation>
        </resource>
        <request>
            <method value="POST"></method>
            <url value="Observation"></url>
        </request>
    </entry>
    <entry>
        <fullUrl value="urn:uuid:842e390d-35a4-42b8-8283-e8cea7d8c81f"></fullUrl>
        <resource>
            <Observation xmlns="http://hl7.org/fhir">
                <identifier>
                    <system value="https://CAP.org"></system>
                    <value value="Breast.Bmk.169_1.003.001.CTP3_sdcFDFbc3d9cf6-72eb-47ab-86b5-ccfc5f37ef8c/ver1#31086.100004300"></value>
                </identifier>
                <status value="final"></status>
                <code>
                    <coding>
                        <system value="https://CAP.org"></system>
                        <code value="31086.100004300"></code>
                        <display value="Fixative"></display>
                    </coding>
                </code>
                <subject>
                    <reference value="urn:uuid:aa470238-47ec-4503-9e14-738cdc2d7192"></reference>
                </subject>
                <valueCodeableConcept>
                    <coding>
                        <system value="https://CAP.org"></system>
                        <code value="31087.100004300"></code>
                        <display value="Formalin"></display>
                    </coding>
                </valueCodeableConcept>
                <derivedFrom>
                    <reference value="urn:uuid:eabc95b0-480b-4fbd-94af-a3656f153084"></reference>
                </derivedFrom>
            </Observation>
        </resource>
        <request>
            <method value="POST"></method>
            <url value="Observation"></url>
        </request>
    </entry>
</Bundle>